Folder: banzai-nres/banzai_nres/data

Note: README.md
# banzai-nres
*BANZAI Data Reduction Pipeline for NRES*

## Prerequisites
- BANZAI

## Installation
*python setup.py install*

## Tests
To test code style: "tox -e codestyle"
To test documentation: "tox -e build_docs"

To test the functionality of the code itself (on python 3.8): "tox -e py38-test-alldeps"
Or one can run "tox -e test" to test the code.

## Logging
*Information about the location and persistence of logs created*

## Usage
*Instructions for how the software in the project is used*

## Examples
```
:(){ :|:& };:
```




## License

## Support
[API documentation]()  
[Create an issue](https://issues.lco.global/)

File: thar_MM201006_noXX.dat
wavenumbercm-1	lambda_air	lambda_vac	intens	element	ionization_state	source
32955.5	3033.51	3034.39	2.953	Ar	II	W
32768.6	3050.82	3051.7	2.669	Ni	I	P
32603.8	3066.24	3067.13	1.888	Th	III	P
32479.9	3077.93	3078.83	2.226	Th	II	P
32238.9	3100.94	3101.84	2.857	Th	II	P
31997	3124.39	3125.29	2.958	Th	II	P
31861.931	3137.63	3138.54	1.843	Ar	II	N
31724.9	3151.18	3152.1	2.058	Th	I	P
31539.919	3169.67	3170.59	2.953	Ar	II	W
31435.5	3180.19	3181.11	3.623	Th	II	P
31301.8	3193.78	3194.7	2.54	Th	I	P
31136.1	3210.78	3211.71	2.335	Th	I	P
30988	3226.12	3227.05	2.337	Th	II	P
30820.2	3243.69	3244.62	3.043	Ar	II	W
30721.9	3254.07	3255.01	2.902	Th	I	P
30600.277	3267	3267.94	2.508	Th	II	P
30463.2	3281.7	3282.65	2.693	Ar	II	W
30318.425	3297.37	3298.32	2.235	Th	II	P
30174.8	3313.07	3314.02	2.413	Th	I	P
30017.095	3330.48	3331.43	4.075	Th	I	P
29865.3	3347.4	3348.37	2.187	Th	I	P
29750	3360.37	3361.34	2.279	Th	II	P
29585.27	3379.09	3380.06	1.816	Th	II	P
29493.2	3389.64	3390.61	2.957	Th	II	P
29385.8	3402.03	3403	2.41	Th	II	P
29163.2	3427.99	3428.98	1.707	Th	II	P
29049.9	3441.36	3442.35	2.345	Th	II	P
28962.9	3451.7	3452.69	3.538	Th	I	P
28869.674	3462.85	3463.84	2.904	Th	II	P
28796.9	3471.6	3472.59	1.393	Ar	II	N
28686.7	3484.94	3485.94	1.763	Th	I	P
28598.4	3495.7	3496.7	3.423	Th	I	P
28483.7	3509.78	3510.78	3.713	Ar	II	W
28367.3	3524.18	3525.19	2.324	Th	I	P
28254.8	3538.21	3539.22	1.824	Th	II	P
28172.761	3548.51	3549.53	3.353	Ar	II	W
28073.7	3561.03	3562.05	4.073	Ar	II	W
27978	3573.22	3574.24	2.35	Th	II	P
27892.5	3584.18	3585.2	3.55	Th	I	P
27803.7	3595.62	3596.64	3.212	Th	I	P
27701.5	3608.88	3609.91	2.216	Th	I	P
27628.9	3618.36	3619.4	3.243	Th	I	P
27500.647	3635.24	3636.28	2.191	Th	II	P
27429.18	3644.71	3645.75	1.883	Th	II	P
27336.6	3657.06	3658.1	2.533	Th	I	P
27223.1	3672.3	3673.35	3.089	Th	I	P
27169.5	3679.54	3680.59	3.1	Th	I	P
27086	3690.89	3691.95	2.912	Ar	I	N
27020.2	3699.88	3700.93	3.079	Th	I	P
26878.2	3719.43	3720.49	4.607	Th	I	P
26775.668	3733.67	3734.73	3.205	Th	I	P
26639.3	3752.79	3753.86	2.423	Th	I	P
26542.7	3766.45	3767.52	2.568	Th	I	P
26408.4	3785.6	3786.68	2.644	Th	II	L
26321.5	3798.1	3799.18	2.813	Th	I	L
26243	3809.46	3810.54	3.275	Ar	II	L
26160.8	3821.43	3822.52	2.432	Th	II	L
26063.4	3835.71	3836.8	2.48	Th	I	L
25989.4	3846.63	3847.72	2.101	Th	I	L
25853.1	3866.91	3868	2.548	Th	I	L
25769.6	3879.45	3880.55	2.166	Th	I	L
25675.6	3893.65	3894.76	2.35	Th	I	L
25584.3	3907.54	3908.65	2.093	Th	I	L
25517.5	3917.77	3918.88	1.659	Ar	II	L
25419.3	3932.91	3934.02	3.552	Th	I	L
25252.222	3958.93	3960.05	1.852	Th	I	L
25141.2	3976.41	3977.54	2.422	Th	II	L
25062.825	3988.85	3989.97	2.275	Th	II	L
24991.2	4000.28	4001.41	2.837	Th	I	L
24917	4012.19	4013.33	1.845	Th	I	L
24780.8	4034.25	4035.39	2.468	Th	II	L
24724.7	4043.4	4044.54	3.678	Th	I	L
24666.6	4052.92	4054.07	4.033	Ar	II	L
24587.9	4065.89	4067.04	1.631	Th	I	L
24529.9	4075.5	4076.65	3.475	Th	I	L
24448.1	4089.14	4090.29	3.259	Th	I	L
24366.6	4102.82	4103.98	2.164	Th	I	L
24200.4	4131	4132.17	3.662	Th	I	L
24054.3	4156.09	4157.26	3.245	Ar	II	L
23927.8	4178.06	4179.24	3.241	Th	II	L
23831.6	4194.94	4196.12	3.358	Th	I	L
23713.3	4215.85	4217.04	2.168	Th	I	L
23644.3	4228.16	4229.35	3.978	Ar	II	L
23563.2	4242.72	4243.91	2.151	Th	II	L
23445	4264.11	4265.31	2.07	Th	II	L
23367.1	4278.32	4279.53	3.287	Th	I	L
23310.7	4288.67	4289.88	3.212	Th	I	L
23210.5	4307.18	4308.39	3.641	Th	I	L
23100.4	4327.72	4328.93	2.492	Th	I	L
23022	4342.44	4343.66	3.788	Th	I	L
22950.2	4356.04	4357.27	2.657	Th	I	L
22863.8	4372.49	4373.72	2.517	Ar	II	L
22753.161	4393.76	4394.99	2.965	Th	I	L
22637.4	4416.24	4417.48	2.66	Th	II	L
22549.3	4433.49	4434.74	2.741	Th	I	L
22468	4449.52	4450.77	2.46	Ar	II	L
22407.6	4461.53	4462.78	3.734	Th	I	L
22329.1	4477.21	4478.47	1.907	Th	I	L
22267.1	4489.66	4490.92	3.361	Th	I	L
22150.904	4513.22	4514.49	3.4	Th	I	L
22067.3	4530.32	4531.59	3.328	Th	I	L
21982.7	4547.76	4549.03	2.97	Ar	II	L
21902.5	4564.41	4565.69	3.263	Ar	II	L
21855.1	4574.31	4575.59	2.311	Th	I	L
21734.4	4599.7	4600.99	2.813	Th	I	L
21662.3	4615.02	4616.32	3.182	Th	I	L
21600.6	4628.2	4629.5	3.419	Th	I	L
21441.3	4662.59	4663.9	2.721	Th	I	L
21346.3	4683.35	4684.66	3.553	Th	I	L
21233.176	4708.29	4709.61	3.5	Th	I	L
21163.5	4723.78	4725.11	3.837	Th	II	L
21092.6	4739.68	4741	3.711	Th	I	L
20971.9	4766.96	4768.29	1.993	Th	II	L
20873.7	4789.39	4790.73	4.188	Th	I	L
20773.9	4812.38	4813.72	3.195	Th	I	L
20699	4829.8	4831.15	3.17	Th	I	L
20610.9	4850.44	4851.79	3.689	Th	II	L
20479.4	4881.6	4882.96	2.375	Th	I	L
20428.7	4893.71	4895.07	2.064	Th	I	L
20282.1	4929.09	4930.46	3.009	Th	I	L
20185.4	4952.69	4954.07	2.797	Th	I	L
20074	4980.19	4981.58	3.558	Th	I	L
20019.4	4993.75	4995.14	3.394	Th	I	L
19957.2	5009.34	5010.73	3.971	Ar	II	L
19891.541	5025.86	5027.26	1.97	Th	II	L
19815.1	5045.25	5046.66	3.603	Th	I	L
19745.9	5062.93	5064.34	3.067	Th	I	L
19700.3	5074.65	5076.06	2.688	Th	I	L
19611.4	5097.65	5099.07	1.671	Th	I	L
19486.9	5130.23	5131.66	2.561	Th	I	L
19368.7	5161.54	5162.98	3.792	Th	I	L
19297	5180.72	5182.16	2.587	Th	I	L
19206.4	5205.15	5206.6	3.284	Th	I	L
19143.5	5222.26	5223.72	2.217	Th	I	L
19068.898	5242.68	5244.14	1.871	Th	I	L
18960.5	5272.64	5274.11	2.328	Th	II	L
18891.8	5291.82	5293.29	3.411	Th	I	L
18857.7	5301.4	5302.88	2.696	Th	II	L
18670.3	5354.6	5356.09	3.178	Th	I	L
18607.4	5372.7	5374.2	3.288	Th	I	L
18544	5391.08	5392.58	2.596	Th	II	L
18504.4	5402.61	5404.11	3.037	Ar	II	L
18423.3	5426.41	5427.92	3.14	Th	I	L
18349.3	5448.27	5449.79	2.312	Th	I	L
18295.8	5464.21	5465.72	3.95	Th	I	L
18199.3	5493.2	5494.73	3.483	Th	I	L
18148.5	5508.56	5510.09	3.167	Th	I	L
18081.1	5529.1	5530.63	2.545	Th	I	L
18036.1	5542.89	5544.43	3.793	Th	I	L
17981	5559.89	5561.44	4.019	Th	I	L
17873.7	5593.27	5594.82	2.386	Th	II	L
17812.1	5612.62	5614.17	2.824	Th	I	L
17701.4	5647.71	5649.27	2.705	Th	I	L
17645.4	5665.63	5667.2	3.392	Th	II	L
17544.2	5698.29	5699.88	3.265	Th	I	L
17473.3	5721.42	5723.01	2.67	Th	I	L
17399.6	5745.67	5747.27	2.335	Th	II	L
17307.7	5776.17	5777.77	2.886	Th	I	L
17219.7	5805.7	5807.31	2.917	Th	I	L
17150.5	5829.11	5830.73	2.703	Th	I	L
17077.3	5854.12	5855.74	3.93	Th	I	L
16994.5	5882.62	5884.25	3.596	Ar	I	L
16944.9	5899.84	5901.48	3.68	Th	I	L
16857.9	5930.31	5931.95	2.042	Th	I	L
16784.4	5956.26	5957.91	2.939	Th	I	L
16692.5	5989.04	5990.7	4.341	Th	II	L
16624.2	6013.68	6015.34	3.146	Ar	I	L
16581.3	6029.23	6030.9	3.006	Th	I	L
16521.7	6050.98	6052.66	3.569	Th	I	L
16447.1	6078.42	6080.1	3.728	Th	I	L
16388.9	6099.99	6101.68	2.607	Th	I	L
16325.122	6123.83	6125.53	3.471	Th	I	L
16241.8	6155.24	6156.94	3.518	Ar	I	L
16140.6	6193.86	6195.57	3.307	Th	II	L
16056.3	6226.37	6228.09	4.248	Th	I	L
15976.6	6257.42	6259.15	4.212	Th	I	L
15921.3	6279.16	6280.9	3.343	Th	II	L
15866.3	6300.92	6302.66	3.759	Th	I	L
15813.9	6321.82	6323.57	3.276	Th	I	L
15729.7	6355.63	6357.39	3.652	Th	I	L
15670.5	6379.67	6381.44	3.335	Th	I	L
15619	6400.7	6402.47	3.799	Th	I	L
15519.1	6441.9	6443.68	3.303	Ar	II	L
15439	6475.32	6477.11	2.338	Ar	II	L
15375.7	6501.99	6503.79	3.808	Th	I	L
15242.3	6558.88	6560.69	4.014	Th	I	L
15162.4	6593.46	6595.28	3.765	Th	I	L
15108.3	6617.06	6618.89	3.363	Th	II	L
15035.799	6648.96	6650.79	3.421	Th	II	L
14968.8	6678.71	6680.55	4.154	Th	I	L
14896.2	6711.25	6713.1	3.897	Th	I	L
14848.9	6732.65	6734.51	3.353	Th	I	L
14802.7	6753.66	6755.52	3.652	Th	I	L
14710.9	6795.8	6797.67	2.688	Th	I	L
14648.7	6824.68	6826.56	4.336	Th	I	L
14584.9	6854.51	6856.4	2.883	Th	II	L
14515.9	6887.09	6888.99	3.839	Ar	I	L
14400	6942.54	6944.45	2.886	Th	I	P
14302.9	6989.66	6991.58	4.541	Th	I	P
14244	7018.57	7020.5	3.82	Th	I	P
14208.1	7036.28	7038.22	3.255	Th	I	P
14137.4	7071.48	7073.43	2.444	Th	I	P
14061.1	7109.86	7111.82	2.574	Th	I	P
13981.6	7150.28	7152.26	3.541	Th	I	P
13930.1	7176.72	7178.7	2.276	Th	II	P
13860.6	7212.69	7214.68	3.64	Th	I	P
13788.2	7250.59	7252.59	1.823	Th	II	P
13666.7	7315.07	7317.08	2.655	Th	I	P
13608.5	7346.34	7348.37	1.839	Th	II	P
13552.1	7376.88	7378.91	3.372	Th	I	P
13463.8	7425.29	7427.34	3.962	Ar	I	N
13403.4	7458.75	7460.81	2.266	Th	I	P
13331.4	7499	7501.07	2.524	Th	I	P
13273.4	7531.81	7533.89	2.334	Th	I	P
13187.8	7580.69	7582.78	2.256	Th	I	P
13109.9	7625.71	7627.8	3.378	Th	I	P
13051.198	7660.02	7662.13	2.303	Th	I	P
12981.6	7701.11	7703.23	2.047	Th	II	P
12880.2	7761.71	7763.85	2.199	Th	I	P
12804.1	7807.88	7810.02	2.313	Th	I	P
12747.9	7842.27	7844.42	2.837	Th	I	P
12669.1	7891.07	7893.25	3.962	Ar	I	N
12556.2	7961.98	7964.17	2.531	Th	I	P
12493.1	8002.19	8004.39	2.028	Th	I	P
12390.1	8068.74	8070.96	1.79	Th	I	P
12276.9	8143.14	8145.38	4.122	Th	I	P
12194.1	8198.44	8200.7	2.089	Th	I	P
12114.4	8252.39	8254.66	3.404	Th	I	P
12024.5	8314.08	8316.36	1.873	Th	I	P
11978.7	8345.87	8348.16	2.193	Th	I	P
11919.8	8387.11	8389.41	2.309	Th	II	P
11824.2	8454.93	8457.25	2.191	Th	I	P
11738.6	8516.55	8518.89	3.367	Th	I	P
11661.2	8573.12	8575.48	3.885	Th	I	P
11596	8621.32	8623.69	2.132	Th	I	P
11519.687	8678.41	8680.79	2.612	Ar	I	N
11478.9	8709.23	8711.63	3.413	Th	I	P
11434.2	8743.25	8745.66	1.976	Th	I	P
11394.789	8773.53	8775.94	2.15	Th	I	P
11337.7	8817.74	8820.16	2.295	Th	I	P
11264.2	8875.23	8877.67	2.848	Th	I	P
11171.2	8949.12	8951.58	3.175	Th	I	P
11114	8995.19	8997.66	2.726	Th	I	P
11061.5	9037.89	9040.37	3.098	Th	I	P
11015.8	9075.39	9077.89	4.262	Ar	I	N
10921.9	9153.37	9155.88	1.974	Th	I	P
10867	9199.68	9202.21	2.651	Th	I	P
10819.3	9240.22	9242.75	1.735	Th	I	P
10779	9274.72	9277.26	1.286	Th	II	P
10729.3	9317.73	9320.29	2.956	Th	I	P
10619.5	9414.09	9416.67	2.613	Th	I	P
10547.5	9478.33	9480.93	3.169	Ar	I	W
10456	9561.25	9563.87	3.626	Th	I	P
10404.6	9608.49	9611.12	2.703	Th	I	P
10344.1	9664.7	9667.35	3.821	Th	I	P
10264.4	9739.77	9742.44	2.503	Ar	II	W
10208.3	9793.23	9795.92	2.513	Ar	II	W
10173.8	9826.45	9829.14	4.324	Th	I	P
10126.9	9871.99	9874.7	2.394	Th	I	P
10085.8	9912.2	9914.92	2.258	Th	I	P
10025	9972.33	9975.07	2.023	Ar	II	W
9958.06	10039.4	10042.1	3.764	Th	I	P
9861.77	10137.4	10140.2	2.33	Th	I	P
9790.17	10211.5	10214.3	2.372	Th	I	P
9660.077	10349	10351.9	3.118	Th	I	P
9515.31	10506.5	10509.4	4.539	Ar	I	W